File: Dataset.csv
Length (mm),Width (mm),Height (mm),Concrete compressive strength (MPa),Longitudinal steel yield strength (MPa),Longitudinal steel reinforcement ratio (%),Transverse steel yield strength (MPa),Transverse steel reinforcement ratio (%),Axial load ratio,Spacing of transverse steel (mm),Reflected pressure (MPa),Reflected impulse (MPa-msec),Maximum displacement height (mm),Maximum displacement (mm)
150,100,1980,46.5,483,2.67,580,1.52,0,50,0.022,0.12,990,13.9
150,100,1980,46.5,483,2.67,580,1.52,0,50,0.038,0.158,990,20.8
150,100,1980,46.5,483,2.67,580,1.52,0.42,50,0.023,0.193,990,24.2
150,100,1980,46.5,483,2.67,580,1.52,0.42,50,0.04,0.426,990,66.4
150,100,1980,58,483,2.67,580,1.52,0.35,50,0.051,0.193,990,15
150,100,1980,58,483,2.67,580,1.52,0.35,50,0.058,0.222,990,19.2
150,100,1980,58,483,2.67,580,1.52,0.35,50,0.09,0.362,990,76.4
150,100,1980,58,483,2.67,580,3.04,0.35,25,0.048,0.176,990,7.5
150,100,1980,58,483,2.67,580,3.04,0.35,25,0.05,0.194,990,13.5
150,100,1980,58,483,2.67,580,3.04,0.35,25,0.058,0.228,990,18.2
150,100,1980,58,483,2.67,580,1.52,0.35,50,0.024,0.141,990,3.5
150,100,1980,58,483,2.67,580,1.52,0.35,50,0.04,0.242,990,19.4
150,100,1980,58,483,2.67,580,1.52,0.35,50,0.053,0.324,990,45.5
150,100,1980,58,483,2.67,580,3.04,0.35,25,0.022,0.133,990,5.1
150,100,1980,58,483,2.67,580,3.04,0.35,25,0.038,0.235,990,22
150,100,1980,58,483,2.67,580,3.04,0.35,25,0.045,0.305,990,52
150,100,1980,58,483,2.67,580,1.52,0.35,50,0.015,0.183,990,15
150,100,1980,58,483,2.67,580,1.52,0.35,50,0.03,0.255,990,24
150,100,1980,58,483,2.67,580,1.52,0.35,50,0.09,0.763,990,208
150,100,1980,58,483,2.67,580,3.04,0.35,25,0.015,0.107,990,2.2
150,100,1980,58,483,2.67,580,3.04,0.35,25,0.025,0.221,990,16.8
150,100,1980,58,483,2.67,580,3.04,0.35,25,0.079,0.656,990,264
150,100,1980,58,483,2.67,580,1.52,0.35,50,0.014,0.182,990,14.4
150,100,1980,58,483,2.67,580,1.52,0.35,50,0.025,0.269,990,27.5
150,100,1980,58,483,2.67,580,1.52,0.35,50,0.068,0.683,990,171
150,100,1980,58,483,2.67,580,3.04,0.35,25,0.013,0.156,990,10.8
150,100,1980,58,483,2.67,580,3.04,0.35,25,0.024,0.243,990,21.4
150,100,1980,58,483,2.67,580,3.04,0.35,25,0.064,0.6,990,156
150,100,1980,58,483,2.67,580,1.52,0.35,50,0.026,0.44,990,61.8
150,100,1980,58,483,2.67,580,3.04,0.35,25,0.014,0.28,990,18.4
150,100,1980,58,483,2.67,580,3.04,0.35,25,0.029,0.438,990,58
150,100,1980,58,483,1.78,580,0.86,0.28,75,0.04,0.242,990,9.6
150,100,1980,58,483,1.78,580,0.86,0.28,75,0.057,0.324,990,18.8
150,100,1980,58,483,1.78,580,0.86,0.28,75,0.061,0.386,990,30.2
150,100,1980,58,483,1.78,580,0.86,0.28,75,0.09,0.669,990,100.4
150,100,1980,58,483,1.78,580,0.86,0.28,75,0.012,0.29,990,5.5
150,100,1980,58,483,1.78,580,0.86,0.28,75,0.048,0.8,990,20.8
150,100,1980,58,483,2.67,580,1.52,0.36,50,0.014,0.18,990,14.6
150,100,1980,58,483,2.67,580,1.52,0.36,50,0.024,0.258,990,27.5
150,100,1980,58,483,2.67,580,1.52,0.36,50,0.065,0.765,990,171.1
150,100,1980,58,483,2.67,580,3.04,0.36,25,0.013,0.155,990,10.9
150,100,1980,58,483,2.67,580,3.04,0.36,25,0.024,0.227,990,21.5
150,100,1980,58,483,2.67,580,3.04,0.36,25,0.063,0.622,990,156
150,100,1980,56.2,483,2.67,580,1.52,0.37,50,0.013,0.146,990,12.8
150,100,1980,56.2,483,2.67,580,1.52,0.37,50,0.019,0.241,990,25.6
150,100,1980,56.2,483,2.67,580,1.52,0.37,50,0.059,0.686,990,160.9
150,100,1980,56.2,483,2.67,580,3.04,0.37,25,0.014,0.165,990,13.4
150,100,1980,56.2,483,2.67,580,3.04,0.37,25,0.02,0.228,990,27.1
150,100,1980,56.2,483,2.67,580,3.04,0.37,25,0.053,0.555,990,135.3
150,150,1980,69.6,483,1.78,580,1.01,0.25,75,0.014,0.14,990,8.2
150,150,1980,69.6,483,1.78,580,1.01,0.25,75,0.042,0.478,990,36.5
150,150,1980,69.6,483,1.78,580,1.01,0.25,75,0.081,1.074,990,158
150,150,1980,69.6,483,1.78,580,2.01,0.25,37.5,0.014,0.131,990,4.7
150,150,1980,69.6,483,1.78,580,2.01,0.25,37.5,0.048,0.688,990,37.3
150,150,1980,69.6,483,1.78,580,2.01,0.25,37.5,0.07,0.687,990,129
150,150,1980,69.6,483,1.78,580,1.01,0.25,75,0.014,0.168,990,8
150,150,1980,69.6,483,1.78,580,1.01,0.25,75,0.045,0.51,990,36.3
150,150,1980,69.6,483,1.78,580,1.01,0.25,75,0.073,0.643,990,85.5
150,150,1980,69.6,483,1.78,580,2.01,0.25,37.5,0.015,0.188,990,7.7
150,150,1980,69.6,483,1.78,580,2.01,0.25,37.5,0.044,0.42,990,25.1
150,150,1980,69.6,483,1.78,580,2.01,0.25,37.5,0.075,0.787,990,99.5
150,150,1980,69.6,483,1.78,580,2.01,0.25,37.5,0.085,0.839,990,256.5
150,150,1980,69.6,483,1.78,580,1.01,0.25,75,0.014,0.189,990,8.6
150,150,1980,69.6,483,1.78,580,1.01,0.25,75,0.047,0.372,990,24.3
150,150,1980,69.6,483,1.78,580,1.01,0.25,75,0.099,0.716,990,127.6
150,150,1980,69.6,483,1.78,580,2.01,0.25,37.5,0.015,0.158,990,7.3
150,150,1980,69.6,483,1.78,580,2.01,0.25,37.5,0.047,0.474,990,22.7
150,150,1980,69.6,483,1.78,580,2.01,0.25,37.5,0.085,0.776,990,97.3
150,150,1980,69.6,483,1.78,580,1.01,0.25,75,0.013,0.13,990,7.3
150,150,1980,69.6,483,1.78,580,1.01,0.25,75,0.041,0.356,990,32.6
150,150,1980,69.6,483,1.78,580,1.01,0.25,75,0.08,0.679,990,70.1
150,150,1980,69.6,483,1.78,580,2.01,0.25,37.5,0.014,0.168,990,8.1
150,150,1980,69.6,483,1.78,580,2.01,0.25,37.5,0.047,0.443,990,31.4
150,150,1980,69.6,483,1.78,580,2.01,0.25,37.5,0.088,0.793,990,102.7
150,150,1980,49.5,497,1.78,580,1.01,0.31,75,0.013,0.136,990,6.4
150,150,1980,49.5,497,1.78,580,1.01,0.31,75,0.039,0.378,990,20
150,150,1980,49.5,497,1.78,580,1.01,0.31,75,0.079,0.997,990,152
150,150,1980,49.5,497,1.78,580,0.5,0.35,150,0.009,0.104,990,3.1
150,150,1980,49.5,497,1.78,580,0.5,0.35,150,0.038,0.38,990,20.5
150,150,1980,49.5,497,1.78,580,0.5,0.35,150,0.076,0.739,990,63
150,150,1980,49.5,497,1.78,580,0.5,0.35,150,0.083,0.971,990,122.5
150,150,1980,49.5,497,1.78,580,1.01,0.35,75,0.012,0.141,990,4.1
150,150,1980,49.5,497,1.78,580,1.01,0.35,75,0.036,0.381,990,17.1
150,150,1980,49.5,497,1.78,580,1.01,0.35,75,0.071,0.78,990,50
150,150,1980,49.5,497,1.78,580,1.01,0.35,75,0.084,0.983,990,72.5
150,150,1980,49.5,497,1.78,580,1.01,0.35,75,0.084,1.67,990,103.3
150,150,1980,49.5,497,1.78,580,1.01,0.35,75,0.011,0.155,990,6.3
150,150,1980,49.5,497,1.78,580,1.01,0.35,75,0.035,0.376,990,24.4
150,150,1980,49.5,497,1.78,580,1.01,0.35,75,0.074,0.888,990,55.1
150,150,1980,49.5,497,1.78,580,1.01,0.35,75,0.083,0.983,990,72.6
150,150,1980,49.5,497,1.78,580,1.01,0.35,75,0.079,1.61,990,75.8
150,150,1980,49.5,497,1.78,580,1.01,0.35,75,0.014,0.151,990,1.5
150,150,1980,49.5,497,1.78,580,1.01,0.35,75,0.035,0.447,990,21.1
150,150,1980,49.5,497,1.78,580,1.01,0.35,75,0.068,0.813,990,44
150,150,1980,49.5,497,1.78,580,1.01,0.35,75,0.08,0.956,990,51.6
150,150,1980,49.5,497,1.78,580,1.01,0.35,75,0.084,1.894,990,47.8
150,150,1980,49.5,497,1.78,580,1.01,0.12,75,0.011,0.146,990,4.5
150,150,1980,49.5,497,1.78,580,1.01,0.12,75,0.037,0.437,990,23.9
150,150,1980,49.5,497,1.78,580,1.01,0.12,75,0.068,0.88,990,53.7
150,150,1980,49.5,497,1.78,580,1.01,0.12,75,0.083,1.037,990,75.8
150,150,1980,49.5,497,1.78,580,1.01,0.12,75,0.083,1.85,990,76
150,150,2438,44,572,1.78,521,2.09,0,37.5,0.014,0.144,1219,23.3
150,150,2438,44,572,1.78,521,2.09,0,37.5,0.022,0.237,1219,53.3
150,150,2438,44,572,1.78,521,2.09,0,37.5,0.013,0.144,1219,17.7
150,150,2438,44,572,1.78,521,2.09,0,37.5,0.03,0.284,1219,50.2
150,150,2438,44,572,1.78,521,2.09,0,37.5,0.031,0.31,1219,63.4
150,150,2438,44,572,1.78,521,2.09,0,37.5,0.036,0.345,1219,85
150,150,2438,44,572,1.78,521,2.09,0,37.5,0.036,0.372,1219,104.9
150,150,2438,44,572,1.78,521,2.09,0.37,37.5,0.017,0.18,1219,23.9
150,150,2438,44,572,1.78,521,2.09,0,37.5,0.032,0.335,1219,62.5
150,150,2438,44,572,1.78,521,2.09,0.36,37.5,0.017,0.188,1219,14.3
150,150,2438,44,572,1.78,521,2.09,0.37,37.5,0.03,0.33,1219,33.5
150,150,2438,44,572,1.78,521,2.09,0.37,37.5,0.041,0.435,1219,130.1
150,150,2438,44,572,1.78,521,2.09,0.36,37.5,0.048,0.476,1219,131.5
150,150,2438,44,572,1.78,521,2.09,0.38,37.5,0.049,0.482,1219,105
150,150,2438,33,572,1.78,521,0.79,0.48,100,0.051,0.477,1219,125.3
150,150,2438,33,572,1.78,521,0.79,0.47,100,0.053,0.488,1219,156.9
150,150,2438,33,572,1.78,521,0.79,0.48,100,0.048,0.473,1219,53.5
150,150,2438,33,572,1.78,521,0.79,0.52,100,0.054,0.503,1219,59.3
150,150,2438,33,572,1.78,521,0.79,0.48,100,0.049,0.494,1219,94.7
150,150,2438,33,572,1.78,521,0.79,0.5,100,0.047,0.438,1219,69.1
150,150,2438,33,572,1.78,521,0.79,0.49,100,0.047,0.472,1219,81
150,150,2438,33,572,1.78,521,0.79,0.51,100,0.05,0.44,1219,54.1
150,150,2438,33,572,1.78,521,0.79,0.5,100,0.049,0.463,1219,51.3
150,150,2438,44,572,1.78,521,2.09,0.39,37.5,0.054,0.509,1219,114.9
150,150,2438,44,572,1.78,521,2.09,0.39,37.5,0.056,0.5,1219,130.3
150,150,2438,44,572,1.78,521,2.09,0.4,37.5,0.051,0.511,1219,148.8
150,150,2438,44,572,1.78,521,2.09,0.39,37.5,0.057,0.599,1219,81.3
150,150,2438,44,572,1.78,521,2.09,0.39,37.5,0.061,0.561,1219,100.3
150,150,2438,44,572,1.78,521,2.09,0.38,37.5,0.059,0.587,1219,172.1
150,150,2438,44,572,1.78,521,2.09,0.39,37.5,0.047,0.456,1219,54.7
150,150,2438,44,572,1.78,521,2.09,0.38,37.5,0.055,0.487,1219,111.3
150,150,2438,44,572,1.78,521,2.09,0.38,37.5,0.05,0.463,1219,62
150,150,2438,44,572,1.78,521,2.09,0.39,37.5,0.049,0.499,1219,58.7
150,150,2438,33,572,1.78,521,0.79,0.48,100,0.05,0.432,1219,110.9
150,150,2438,33,572,1.78,521,0.79,0.47,100,0.061,0.625,1219,257
150,150,2438,33,572,1.78,521,0.79,0.47,100,0.056,0.57,1219,76.25
150,150,2438,33,572,1.78,521,0.79,0.48,100,0.058,0.579,1219,131.7
150,150,2438,33,572,1.78,521,0.79,0.49,100,0.055,0.532,1219,96.6
152,152,2468,51.6,483,1.72,604,1.09,0.24,75,0.014,0.13,1234,6.4
152,152,2468,51.6,483,1.72,604,1.09,0.24,75,0.042,0.381,1234,29.9
152,152,2468,51.6,483,1.72,604,1.09,0.24,75,0.088,0.781,1234,126.2
152,152,2468,51.6,483,1.72,604,2.18,0.24,38,0.013,0.123,1234,6.6
152,152,2468,51.6,483,1.72,604,2.18,0.24,38,0.041,0.401,1234,25
152,152,2468,51.6,483,1.72,604,2.18,0.24,38,0.079,0.756,1234,92
152,152,2468,51.6,483,1.72,604,2.18,0.24,38,0.109,0.964,1234,340.9
152,152,2468,53.8,483,1.72,604,1.09,0.23,75,0.013,0.131,1234,5
152,152,2468,53.8,483,1.72,604,1.09,0.23,75,0.041,0.4,1234,21.3
152,152,2468,53.8,483,1.72,604,1.09,0.23,75,0.082,0.784,1234,93.9
152,152,2468,54.7,483,1.72,604,1.09,0.22,75,0.016,0.193,1234,11.5
152,152,2468,54.7,483,1.72,604,1.09,0.22,75,0.041,0.41,1234,29.3
152,152,2468,54.7,483,1.72,604,1.09,0.22,75,0.087,0.676,1234,81.7
152,152,2468,46.1,483,1.72,604,1.09,0.26,75,0.013,0.127,1234,5.1
152,152,2468,46.1,483,1.72,604,1.09,0.26,75,0.041,0.411,1234,23.3
152,152,2468,46.1,483,1.72,604,1.09,0.26,75,0.077,0.767,1234,87.7
152,152,2468,56.6,483,1.72,604,1.09,0.22,75,0.013,0.138,1234,5.7
152,152,2468,56.6,483,1.72,604,1.09,0.22,75,0.039,0.395,1234,24.1
152,152,2468,56.6,483,1.72,604,2.18,0.22,38,0.073,0.681,1234,73
152,152,2468,53.8,483,1.72,604,2.18,0.23,38,0.014,0.144,1234,6.7
152,152,2468,53.8,483,1.72,604,2.18,0.23,38,0.046,0.416,1234,26.6
152,152,2468,53.8,483,1.72,604,2.18,0.23,38,0.083,0.77,1234,99.7
152,152,2468,53.8,483,1.72,604,2.18,0.23,38,0.106,0.887,1234,248.6
152,152,2468,40.5,483,1.72,604,1.09,0.29,75,0.013,0.126,1234,8
152,152,2468,40.5,483,1.72,604,1.09,0.29,75,0.04,0.384,1234,27
152,152,2468,40.5,483,1.72,604,1.09,0.29,75,0.077,0.783,1234,112.6
152.4,152.4,2438,40.56,464,2.22,542,1.08,0.29,75,0.022,0.242,1219,10.7
152.4,152.4,2438,40.56,464,2.22,542,1.08,0.29,75,0.04,0.464,1219,20.47
152.4,152.4,2438,40.56,464,2.22,542,1.08,0.29,75,0.065,0.854,1219,87.38
152.4,152.4,2438,40.56,449,3.44,542,1.08,0.26,75,0.022,0.193,1219,7.41
152.4,152.4,2438,40.56,449,3.44,542,1.08,0.26,75,0.039,0.428,1219,20.01
152.4,152.4,2438,40.56,449,3.44,542,1.08,0.26,75,0.072,0.846,1219,83.96
152.4,152.4,2438,40.56,449,3.44,542,1.08,0.26,75,0.083,1.098,1219,162.77
152.4,152.4,2438,93.94,474,1.72,542,1.08,0.15,75,0.023,0.233,1219,8.38
152.4,152.4,2438,93.94,474,1.72,542,1.08,0.15,75,0.045,0.429,1219,33.64
152.4,152.4,2438,93.94,474,1.72,542,1.08,0.15,75,0.075,0.779,1219,132.57
152.4,152.4,2438,93.94,474,1.72,542,2.17,0.15,38,0.02,0.211,1219,9.49
152.4,152.4,2438,93.94,474,1.72,542,2.17,0.15,38,0.041,0.378,1219,20.81
152.4,152.4,2438,93.94,474,1.72,542,2.17,0.15,38,0.074,0.731,1219,106.13
152.4,152.4,2438,84.68,464,2.22,542,1.08,0.16,75,0.024,0.181,1219,7.21
152.4,152.4,2438,84.68,464,2.22,542,1.08,0.16,75,0.04,0.462,1219,20.07
152.4,152.4,2438,84.68,464,2.22,542,1.08,0.16,75,0.078,0.875,1219,82.35
152.4,152.4,2438,84.68,464,2.22,542,1.08,0.16,75,0.092,1.112,1219,210.58
152.4,152.4,2438,84.68,449,3.44,542,1.08,0.15,75,0.021,0.226,1219,7.57
152.4,152.4,2438,84.68,449,3.44,542,1.08,0.15,75,0.039,0.372,1219,16.02
152.4,152.4,2438,84.68,449,3.44,542,1.08,0.15,75,0.073,0.696,1219,77.7
152.4,152.4,2438,84.68,449,3.44,542,1.08,0.15,75,0.088,0.998,1219,141.09
152.4,152.4,2438,93.56,474,1.72,542,1.08,0.15,75,0.024,0.227,1219,9.08
152.4,152.4,2438,93.56,474,1.72,542,1.08,0.15,75,0.043,0.422,1219,22.85
152.4,152.4,2438,93.56,474,1.72,542,1.08,0.15,75,0.075,0.813,1219,91.41
152.4,152.4,2438,93.35,474,1.72,542,1.08,0.15,75,0.023,0.216,1219,7.07
152.4,152.4,2438,93.35,474,1.72,542,1.08,0.15,75,0.031,0.454,1219,19.41
152.4,152.4,2438,93.35,474,1.72,542,1.08,0.15,75,0.074,0.734,1219,83.78
152.4,152.4,2438,96.05,464,2.22,542,1.08,0.14,75,0.022,0.223,1219,7.62
152.4,152.4,2438,96.05,464,2.22,542,1.08,0.14,75,0.034,0.453,1219,15.37
152.4,152.4,2438,96.05,464,2.22,542,1.08,0.14,75,0.068,0.869,1219,62.73
152.4,152.4,2438,96.05,464,2.22,542,1.08,0.14,75,0.086,1.01,1219,153.13
152.4,152.4,2438,100.45,449,3.44,542,1.08,0.13,75,0.019,0.217,1219,8.07
152.4,152.4,2438,100.45,449,3.44,542,1.08,0.13,75,0.032,0.416,1219,17.52
152.4,152.4,2438,100.45,449,3.44,542,1.08,0.13,75,0.064,0.752,1219,54.62
152.4,152.4,2438,100.45,449,3.44,542,1.08,0.13,75,0.087,0.934,1219,120.52
152.4,152.4,2438,103.59,987,1.22,542,1.08,0.13,75,0.021,0.228,1219,9.15
152.4,152.4,2438,103.59,987,1.22,542,1.08,0.13,75,0.037,0.42,1219,18.35
152.4,152.4,2438,103.59,987,1.22,542,1.08,0.13,75,0.063,0.799,1219,67.28
152.4,152.4,2438,69.43,889,2.22,542,1.08,0.16,75,0.02,0.197,1219,9.65
152.4,152.4,2438,69.43,889,2.22,542,1.08,0.16,75,0.035,0.443,1219,16.76
152.4,152.4,2438,69.43,889,2.22,542,1.08,0.16,75,0.077,0.866,1219,46.17
152.4,152.4,2438,69.43,889,2.22,542,1.08,0.16,75,0.101,1.101,1219,94.24
152.4,152.4,2438,91.28,889,2.22,542,2.17,0.13,38,0.024,0.22,1219,6.82
152.4,152.4,2438,91.28,889,2.22,542,2.17,0.13,38,0.035,0.404,1219,13.28
152.4,152.4,2438,91.28,889,2.22,542,2.17,0.13,38,0.072,0.899,1219,39.95
152.4,152.4,2438,91.28,889,2.22,542,2.17,0.13,38,0.075,1.087,1219,84.3
152.4,152.4,2438,88.04,821,3.44,542,1.08,0.13,75,0.023,0.241,1219,8.74
152.4,152.4,2438,88.04,821,3.44,542,1.08,0.13,75,0.035,0.476,1219,17.18
152.4,152.4,2438,88.04,821,3.44,542,1.08,0.13,75,0.069,0.746,1219,37.06
152.4,152.4,2438,88.04,821,3.44,542,1.08,0.13,75,0.082,1.004,1219,62.68
152.4,152.4,2438,88.04,821,3.44,542,1.08,0.13,75,0.086,0.985,1219,182.59
152.4,152.4,2438,88.16,987,1.22,542,1.08,0.15,75,0.023,0.255,1219,12.37
152.4,152.4,2438,88.16,987,1.22,542,1.08,0.15,75,0.041,0.403,1219,25.18
152.4,152.4,2438,88.16,987,1.22,542,1.08,0.15,75,0.074,0.741,1219,98.92
152.4,152.4,2438,88.16,987,1.22,542,1.08,0.15,75,0.076,1.004,1219,516.77
152.4,152.4,2438,78.74,889,2.22,542,1.08,0.15,75,0.019,0.194,1219,6.07
152.4,152.4,2438,78.74,889,2.22,542,1.08,0.15,75,0.038,0.417,1219,13.26
152.4,152.4,2438,78.74,889,2.22,542,1.08,0.15,75,0.068,0.794,1219,40.65
152.4,152.4,2438,78.74,889,2.22,542,1.08,0.15,75,0.082,0.934,1219,99.02
152.4,152.4,2438,89.78,821,3.44,542,1.08,0.12,75,0.019,0.236,1219,9.23
152.4,152.4,2438,89.78,821,3.44,542,1.08,0.12,75,0.033,0.441,1219,15.59
152.4,152.4,2438,89.78,821,3.44,542,1.08,0.12,75,0.061,0.853,1219,33.2
152.4,152.4,2438,89.78,821,3.44,542,1.08,0.12,75,0.079,1.04,1219,55.39
152.4,152.4,2438,89.78,821,3.44,542,1.08,0.12,75,0.078,1.049,1219,87.89
152,152,2468,155,486,0.43,604,1.08,0.09,75,0.043,0.396,1234,17.63
152,152,2468,155,486,0.43,604,1.08,0.09,75,0.081,0.83,1234,60.11
152,152,2468,154,486,0.43,604,1.08,0.09,75,0.042,0.326,1234,15.68
152,152,2468,154,486,0.43,604,1.08,0.09,75,0.08,0.753,1234,55.75
152,152,2468,155,486,0.43,604,2.17,0.09,38,0.042,0.402,1234,21.8
152,152,2468,155,486,0.43,604,2.17,0.09,38,0.075,0.803,1234,61.03
152,152,2468,155,486,0.43,604,2.17,0.09,38,0.088,1.011,1234,277.7
152,152,2468,154,486,0.43,604,2.17,0.09,38,0.042,0.396,1234,19.64
152,152,2468,154,486,0.43,604,2.17,0.09,38,0.08,0.746,1234,41.36
152,152,2468,154,486,0.43,604,2.17,0.09,38,0.085,0.896,1234,111.8
152,152,2468,155,457,0.87,604,1.08,0.09,75,0.042,0.394,1234,19.93
152,152,2468,155,457,0.87,604,1.08,0.09,75,0.077,0.79,1234,51.97
152,152,2468,155,457,0.87,604,1.08,0.09,75,0.086,0.959,1234,87.78
152,152,2468,155,457,0.87,604,1.08,0.09,75,0.086,0.834,1234,88.1
152,152,2468,130,457,0.87,604,1.08,0.1,75,0.041,0.382,1234,20.2
152,152,2468,130,457,0.87,604,1.08,0.1,75,0.075,0.8,1234,50.6
152,152,2468,130,457,0.87,604,1.08,0.1,75,0.086,0.869,1234,78.81
152,152,2468,130,457,0.87,604,1.08,0.1,75,0.082,0.722,1234,82.8
152,152,2468,108,956,0.31,604,1.08,0.12,75,0.039,0.445,1234,20.39
152,152,2468,125,956,0.31,604,1.08,0.11,75,0.037,0.399,1234,23.89
152,152,2468,125,956,0.31,604,1.08,0.11,75,0.072,0.779,1234,87.94
152,152,2468,142,956,0.31,604,1.08,0.1,75,0.039,0.384,1234,19.34
152,152,2468,142,956,0.31,604,1.08,0.1,75,0.078,0.761,1234,66.44
152,152,2468,142,956,0.31,604,1.08,0.1,75,0.087,0.937,1234,375.5
152,152,2468,108,956,0.31,604,1.08,0.12,75,0.04,0.498,1234,16.86
152,152,2468,108,956,0.31,604,1.08,0.12,75,0.072,0.764,1234,46.31
152,152,2468,108,956,0.31,604,1.08,0.12,75,0.081,0.864,1234,94.32
152,152,2468,125,956,0.31,604,2.17,0.11,38,0.038,0.406,1234,20.48
152,152,2468,125,956,0.31,604,2.17,0.11,38,0.072,0.787,1234,65.05
152,152,2468,125,956,0.31,604,2.17,0.11,38,0.083,0.926,1234,310.55
152,152,2468,166,956,0.31,604,2.17,0.08,38,0.04,0.421,1234,21.15
152,152,2468,166,956,0.31,604,2.17,0.08,38,0.073,0.821,1234,61.32
152,152,2468,166,956,0.31,604,2.17,0.08,38,0.084,0.986,1234,360.12
152,152,2468,51.56,480,1.72,600,1.08,0.25,75,0.014,0.13,1234,6.42
152,152,2468,51.56,480,1.72,600,1.08,0.25,75,0.042,0.381,1234,29.86
152,152,2468,51.56,480,1.72,600,1.08,0.25,75,0.088,0.781,1234,126.23
152,152,2468,51.78,480,1.72,600,2.17,0.25,38,0.013,0.123,1234,6.62
152,152,2468,51.78,480,1.72,600,2.17,0.25,38,0.041,0.401,1234,24.98
152,152,2468,51.78,480,1.72,600,2.17,0.25,38,0.079,0.756,1234,91.99
152,152,2468,51.78,480,1.72,600,2.17,0.25,38,0.109,0.964,1234,340.89
152,152,2468,53.84,480,1.72,600,1.08,0.24,75,0.013,0.131,1234,5.04
152,152,2468,53.84,480,1.72,600,1.08,0.24,75,0.041,0.4,1234,21.29
152,152,2468,53.84,480,1.72,600,1.08,0.24,75,0.082,0.784,1234,93.93
152,152,2468,60.58,480,1.72,600,2.17,0.22,38,0.014,0.144,1234,6.72
152,152,2468,60.58,480,1.72,600,2.17,0.22,38,0.046,0.416,1234,26.62
152,152,2468,60.58,480,1.72,600,2.17,0.22,38,0.083,0.769,1234,99.67
152,152,2468,60.58,480,1.72,600,2.17,0.22,38,0.106,0.887,1234,248.55
152,152,2468,54.67,480,1.72,600,1.08,0.24,75,0.016,0.193,1234,11.46
152,152,2468,54.67,480,1.72,600,1.08,0.24,75,0.041,0.41,1234,29.25
152,152,2468,54.67,480,1.72,600,1.08,0.24,75,0.086,0.676,1234,81.71
152,152,2468,40.46,480,1.72,600,1.08,0.3,75,0.013,0.126,1234,7.98
152,152,2468,40.46,480,1.72,600,1.08,0.3,75,0.04,0.384,1234,26.98
152,152,2468,40.46,480,1.72,600,1.08,0.3,75,0.077,0.783,1234,112.57
152,152,2468,46.03,480,1.72,600,1.08,0.27,75,0.012,0.127,1234,5.11
152,152,2468,46.03,480,1.72,600,1.08,0.27,75,0.041,0.411,1234,23.32
152,152,2468,46.03,480,1.72,600,1.08,0.27,75,0.077,0.767,1234,87.72
152,152,2468,56.64,480,1.72,600,1.08,0.23,75,0.013,0.138,1234,5.73
152,152,2468,56.64,480,1.72,600,1.08,0.23,75,0.039,0.395,1234,24.13
152,152,2468,56.64,480,1.72,600,1.08,0.23,75,0.073,0.681,1234,72.99
152,152,2468,144.73,480,1.72,600,1.08,0.1,75,0.013,0.108,1234,5.15
152,152,2468,144.73,480,1.72,600,1.08,0.1,75,0.044,0.334,1234,21.19
152,152,2468,144.73,480,1.72,600,1.08,0.1,75,0.082,0.736,1234,67.76
152,152,2468,144.73,480,1.72,600,1.08,0.1,75,0.089,0.938,1234,309.48
152,152,2468,149.34,480,1.72,600,2.17,0.1,38,0.014,0.106,1234,5.15
152,152,2468,149.34,480,1.72,600,2.17,0.1,38,0.047,0.381,1234,20.15
152,152,2468,149.34,480,1.72,600,2.17,0.1,38,0.072,0.694,1234,47.43
152,152,2468,149.34,480,1.72,600,2.17,0.1,38,0.093,0.841,1234,71.3
152,152,2468,149.34,480,1.72,600,2.17,0.1,38,0.098,0.771,1234,269.53
152,152,2468,152.6,480,1.72,600,1.08,0.09,75,0.013,0.123,1234,4.74
152,152,2468,152.6,480,1.72,600,1.08,0.09,75,0.046,0.398,1234,21.59
152,152,2468,152.6,480,1.72,600,1.08,0.09,75,0.083,0.776,1234,57.15
152,152,2468,152.6,480,1.72,600,1.08,0.09,75,0.091,1.002,1234,94.25
152,152,2468,153.91,480,1.72,600,2.17,0.09,38,0.015,0.121,1234,5.05
152,152,2468,153.91,480,1.72,600,2.17,0.09,38,0.044,0.365,1234,22.03
152,152,2468,153.91,480,1.72,600,2.17,0.09,38,0.076,0.73,1234,69.21
152,152,2468,165.39,480,1.72,600,1.08,0.09,75,0.014,0.127,1234,5.33
152,152,2468,165.39,480,1.72,600,1.08,0.09,75,0.043,0.384,1234,23.23
152,152,2468,165.39,480,1.72,600,1.08,0.09,75,0.075,0.717,1234,56.28
152,152,2468,165.39,480,1.72,600,1.08,0.09,75,0.103,0.887,1234,373.2
152,152,2468,48,424,1.23,617,1.08,0.28,75,0.044,0.43,1234,33.7
152,152,2468,48,424,1.23,617,1.08,0.28,75,0.083,0.787,1234,139.2
152,152,2468,150,950,1.23,617,1.08,0.09,75,0.049,0.459,1234,19.1
152,152,2468,150,950,1.23,617,1.08,0.09,75,0.089,0.834,1234,57.8
152,152,2468,150,950,1.23,617,1.08,0.09,75,0.102,0.952,1234,300.5
152,152,2468,150,950,1.84,617,1.08,0.09,75,0.049,0.448,1234,17.4
152,152,2468,150,950,1.84,617,1.08,0.09,75,0.095,0.823,1234,53.8
152,152,2468,150,950,1.84,617,1.08,0.09,75,0.105,1.004,1234,144.5
152,152,2468,154,825,2.18,617,1.08,0.09,75,0.041,0.463,1234,30.4
152,152,2468,154,825,2.18,617,1.08,0.09,75,0.076,0.697,1234,80
152,152,2468,154,825,2.18,617,1.08,0.09,75,0.081,0.773,1234,160.1
152,152,2468,154,845,3.4,617,1.08,0.08,75,0.045,0.433,1234,22.6
152,152,2468,154,845,3.4,617,1.08,0.08,75,0.085,0.878,1234,49.2
152,152,2468,154,845,3.4,617,1.08,0.08,75,0.105,1.005,1234,68.4
152,152,2468,154,845,3.4,617,1.08,0.08,75,0.072,0.744,1234,56
152,152,2468,154,845,3.4,617,1.08,0.08,75,0.084,0.871,1234,64.1
152,152,2468,151,922,4.9,617,1.08,0.08,75,0.05,0.466,1234,19.2
152,152,2468,151,922,4.9,617,1.08,0.08,75,0.083,0.768,1234,38.7
152,152,2468,151,922,4.9,617,1.08,0.08,75,0.1,0.964,1234,43.5
152,152,2468,151,922,4.9,617,1.08,0.08,75,0.08,0.931,1234,51.5
152,152,2468,151,922,4.9,617,1.08,0.08,75,0.078,1.412,1234,53.8
152,152,2468,139,630,1.23,617,1.08,0.1,75,0.048,0.42,1234,23.6
152,152,2468,139,630,1.23,617,1.08,0.1,75,0.084,0.809,1234,70.2
152,152,2468,139,630,1.23,617,1.08,0.1,75,0.101,0.91,1234,236.8
152,152,2468,146,630,1.23,617,1.08,0.1,75,0.046,0.472,1234,20.5
152,152,2468,146,630,1.23,617,1.08,0.1,75,0.082,0.81,1234,73.4
152,152,2468,133,630,1.23,617,2.17,0.11,38,0.051,0.441,1234,19.7
152,152,2468,133,630,1.23,617,2.17,0.11,38,0.091,0.838,1234,57
152,152,2468,132,630,1.23,617,1.08,0.11,75,0.051,0.459,1234,22.6
152,152,2468,132,630,1.23,617,1.08,0.11,75,0.094,0.786,1234,68.3
152,152,2468,132,794,1.23,617,1.08,0.11,75,0.046,0.472,1234,21.2
152,152,2468,132,794,1.23,617,1.08,0.11,75,0.082,0.81,1234,63.7
152,152,2468,151,630,1.84,617,1.08,0.09,75,0.048,0.457,1234,22.4
152,152,2468,151,630,1.84,617,1.08,0.09,75,0.092,0.829,1234,58.6
152,152,2468,151,630,1.84,617,1.08,0.09,75,0.104,0.969,1234,102.2
152,152,2468,151,630,1.84,617,1.08,0.09,75,0.094,0.812,1234,92.4
152,152,2468,56,606,2.18,617,1.08,0.21,75,0.048,0.448,1234,24.7
152,152,2468,56,606,2.18,617,1.08,0.21,75,0.086,0.802,1234,76.9
152,152,2468,56,606,2.18,617,1.08,0.21,75,0.105,0.908,1234,136.5
152,152,2468,56,606,2.18,617,2.17,0.21,38,0.045,0.408,1234,26
152,152,2468,56,606,2.18,617,2.17,0.21,38,0.085,0.775,1234,83.5
152,152,2468,56,606,2.18,617,2.17,0.21,38,0.106,0.875,1234,122.9
152,152,2468,149,606,2.18,617,1.08,0.09,75,0.046,0.451,1234,15.8
152,152,2468,149,606,2.18,617,1.08,0.09,75,0.088,0.813,1234,50.6
152,152,2468,149,606,2.18,617,1.08,0.09,75,0.103,0.97,1234,94.9
152,152,2468,149,606,2.18,617,1.08,0.09,75,0.103,0.957,1234,82.5
152,152,2468,149,600,3.4,617,1.08,0.09,75,0.046,0.439,1234,20
152,152,2468,149,600,3.4,617,1.08,0.09,75,0.084,0.803,1234,51.7
152,152,2468,149,600,3.4,617,1.08,0.09,75,0.106,0.98,1234,82.4
152,152,2468,149,600,3.4,617,1.08,0.09,75,0.11,0.89,1234,72.1
152,152,2468,149,600,3.4,617,1.08,0.09,75,0.077,0.807,1234,76.8
152,152,2468,52,486,1.73,604,1.08,0.25,75,0.08,0.75,1234,129
152,152,2468,145,486,1.73,604,1.08,0.1,75,0.08,0.75,1234,68
152,152,2468,145,486,1.73,604,1.08,0.1,75,0.097,0.9,1234,310
152,152,2468,153,486,1.73,604,1.08,0.1,75,0.08,0.75,1234,57
152,152,2468,153,486,1.73,604,1.08,0.1,75,0.097,0.9,1234,94
152,152,2468,149,486,1.73,604,2.17,0.1,38,0.08,0.75,1234,47
152,152,2468,149,486,1.73,604,2.17,0.1,38,0.097,0.9,1234,71
152,152,2468,149,486,1.73,604,2.17,0.1,38,0.085,1.355,1234,270
152,152,2468,138,486,1.73,604,1.08,0.1,75,0.08,0.75,1234,60
152,152,2468,145,486,1.73,604,1.08,0.1,75,0.08,0.75,1234,51
152,152,2468,138,460,3.46,604,1.08,0.1,75,0.08,0.75,1234,52
152,152,2468,138,460,3.46,604,1.08,0.1,75,0.097,0.9,1234,88
152,152,2468,150,950,1.84,604,1.08,0.09,75,0.08,0.75,1234,54
152,152,2468,150,950,1.84,604,1.08,0.09,75,0.097,0.9,1234,145
300,150,2440,38.5,445,1.78,582,0.41,0,150,0.017,0.112,1220,10.9
300,150,2440,38.5,445,1.78,582,0.41,0,150,0.035,0.213,1220,25.4
300,150,2440,38.5,445,1.78,582,0.41,0,150,0.051,0.307,1220,49.9
300,150,2440,38.5,445,1.78,582,0.41,0,150,0.06,0.366,1220,80.5
300,150,2440,38.5,445,1.78,582,0.41,0,150,0.087,0.634,1220,247.2
300,150,2440,32.8,445,1.78,582,0.41,0,150,0.016,0.146,1220,8
300,150,2440,32.8,445,1.78,582,0.41,0,150,0.029,0.201,1220,24.1
300,150,2440,32.8,445,1.78,582,0.41,0,150,0.042,0.306,1220,39.1
300,150,2440,32.8,445,1.78,582,0.41,0,150,0.058,0.396,1220,49.6
300,150,2440,32.8,445,1.78,582,0.41,0,150,0.077,0.558,1220,91.9
300,150,2440,32.8,445,1.78,582,0.41,0,150,0.089,0.719,1220,183.2
300,150,2440,30.8,445,1.78,582,0.41,0,150,0.02,0.144,1220,9.6
300,150,2440,30.8,445,1.78,582,0.41,0,150,0.025,0.189,1220,15.9
300,150,2440,30.8,445,1.78,582,0.41,0,150,0.045,0.279,1220,26.4
300,150,2440,30.8,445,1.78,582,0.41,0,150,0.06,0.419,1220,46.6
300,150,2440,30.8,445,1.78,582,0.41,0,150,0.071,0.586,1220,81
300,150,2440,30.8,445,1.78,582,0.41,0,150,0.084,0.721,1220,94.7
300,150,2440,30.8,445,1.78,582,0.41,0,150,0.088,1.129,1220,141.8
300,150,2440,30.4,445,1.78,582,0.41,0,150,0.018,0.141,1220,12.1
300,150,2440,30.4,445,1.78,582,0.41,0,150,0.026,0.202,1220,16.3
300,150,2440,30.4,445,1.78,582,0.41,0,150,0.052,0.398,1220,33.6
152,152,2468,52,483,1.72,604,1.08,0.4,75,0.014,0.13,1234,6.4
152,152,2468,52,483,1.72,604,1.08,0.4,75,0.042,0.381,1234,29.9
152,152,2468,52,483,1.72,604,1.08,0.4,75,0.088,0.781,1234,126.2
152,152,2468,52,483,1.72,604,2.17,0.4,38,0.013,0.123,1234,6.6
152,152,2468,52,483,1.72,604,2.17,0.4,38,0.041,0.401,1234,25
152,152,2468,52,483,1.72,604,2.17,0.4,38,0.079,0.756,1234,92
152,152,2468,52,483,1.72,604,2.17,0.4,38,0.109,0.964,1234,340.9
152,152,2468,145,483,1.72,604,1.08,0.16,75,0.013,0.109,1234,5.2
152,152,2468,145,483,1.72,604,1.08,0.16,75,0.044,0.334,1234,21.2
152,152,2468,145,483,1.72,604,1.08,0.16,75,0.082,0.736,1234,67.8
152,152,2468,145,483,1.72,604,1.08,0.16,75,0.089,0.938,1234,309.5
152,152,2468,153,483,1.72,604,1.08,0.15,75,0.013,0.124,1234,4.7
152,152,2468,153,483,1.72,604,1.08,0.15,75,0.046,0.398,1234,21.6
152,152,2468,153,483,1.72,604,1.08,0.15,75,0.083,0.776,1234,57.2
152,152,2468,153,483,1.72,604,1.08,0.15,75,0.091,1.002,1234,94.3
152,152,2468,165,483,1.72,604,1.08,0.14,75,0.014,0.127,1234,5.3
152,152,2468,165,483,1.72,604,1.08,0.14,75,0.043,0.384,1234,23.2
152,152,2468,165,483,1.72,604,1.08,0.14,75,0.075,0.717,1234,56.3
152,152,2468,165,483,1.72,604,1.08,0.14,75,0.103,0.887,1234,373.2
152,152,2468,149,483,1.72,604,2.17,0.16,38,0.014,0.106,1234,5.2
152,152,2468,149,483,1.72,604,2.17,0.16,38,0.046,0.381,1234,20.2
152,152,2468,149,483,1.72,604,2.17,0.16,38,0.072,0.694,1234,47.4
152,152,2468,149,483,1.72,604,2.17,0.16,38,0.093,0.841,1234,71.3
152,152,2468,149,483,1.72,604,2.17,0.16,38,0.098,0.771,1234,269.5
152,152,2468,138,486,1.72,604,1.08,0.17,75,0.043,0.456,1234,17.6
152,152,2468,138,486,1.72,604,1.08,0.17,75,0.081,0.855,1234,60.1
152,152,2468,138,457,3.46,604,1.08,0.15,75,0.042,0.422,1234,19.9
152,152,2468,138,457,3.46,604,1.08,0.15,75,0.077,0.815,1234,52
152,152,2468,138,457,3.46,604,1.08,0.15,75,0.086,0.984,1234,74.7
152,152,2468,138,457,3.46,604,1.08,0.15,75,0.086,0.859,1234,88.1
152,152,2468,145,486,1.72,604,1.08,0.16,75,0.042,0.371,1234,15.7
152,152,2468,145,486,1.72,604,1.08,0.16,75,0.08,0.778,1234,50.6
152,152,2468,145,486,1.72,604,2.17,0.16,38,0.042,0.441,1234,19.6
152,152,2468,145,486,1.72,604,2.17,0.16,38,0.08,0.771,1234,41.4
152,152,2468,145,486,1.72,604,2.17,0.16,38,0.085,0.921,1234,111.8
152,152,2468,128,457,3.46,604,1.08,0.16,75,0.041,0.427,1234,20.2
152,152,2468,128,457,3.46,604,1.08,0.16,75,0.075,0.825,1234,46.8
152,152,2468,128,457,3.46,604,1.08,0.16,75,0.086,0.894,1234,78.8
152,152,2468,128,457,3.46,604,1.08,0.16,75,0.082,0.747,1234,82.8
160,160,2468,25.8,411,2.78,595,0.42,0.4,150,0.014,0.122,1234,8.23
160,160,2468,25.8,411,2.78,595,0.42,0.4,150,0.03,0.268,1234,25.21
160,160,2468,25.8,411,2.78,595,0.42,0.4,150,0.068,0.689,1234,127.6
160,160,2468,25.8,411,2.78,595,0.84,0.4,75,0.014,0.116,1234,5.69
160,160,2468,25.8,411,2.78,595,0.84,0.4,75,0.034,0.285,1234,21.74
160,160,2468,25.8,411,2.78,595,0.84,0.4,75,0.067,0.53,1234,105.69
160,160,2468,152,411,2.78,595,0.84,0.15,75,0.012,0.082,1234,3.46
160,160,2468,152,411,2.78,595,0.84,0.15,75,0.032,0.264,1234,16.26
160,160,2468,152,411,2.78,595,0.84,0.15,75,0.07,0.719,1234,79.71
200,150,2440,58.4,484,1.3,413,0.81,0.3,75,0.067,0.377,1220,37.9
200,150,2440,58.4,484,1.3,413,0.81,0.3,75,0.083,0.431,1220,93.5
200,150,2440,58.4,484,1.3,413,0.81,0.3,75,0.062,0.398,1220,31.8
200,150,2440,58.4,484,1.3,413,0.81,0.3,75,0.08,0.438,1220,42.5
300,300,3000,53.3,453,1.4,335,0.62,0.12,200,0.092,0.108,750,15.7